trials.thisTrialN,trials.stepSize,trials.intensity,thisRow.t,notes,trial.started,fixation.started,fixation.stopped,grating.started,key_resp.started,grating.stopped,trial.stopped,corrAns,tilt,key_resp.corr,trials.response,key_resp.rt,participant,session,date,expName,psychopyVersion,frameRate,expStart,
0,2,10.0,0.026629900035914034,,0.008972299983724952,0.026629900035914034,0.5862434000009671,0.5862434000009671,0.5862434000009671,0.9103811000240967,1.3673757000360638,right,10.0,1,1,0.7084791999659501,173767,001,2024-09-10_11h22.05.971,Adaptive_Staircase,2024.1.5,None,2024-09-10 11h22.26.431876 +0530,
1,2,8.0,1.3750389000051655,,1.3674785000039265,1.3750389000051655,1.8769365000189282,1.8769365000189282,1.8769365000189282,2.1930493999971077,2.396795700013172,right,8.0,1,1,0.5086628000135534,173767,001,2024-09-10_11h22.05.971,Adaptive_Staircase,2024.1.5,None,2024-09-10 11h22.26.431876 +0530,
2,2,6.0,2.426443200034555,,2.396917800011579,2.426443200034555,2.960064599988982,2.9279734999872744,2.9279734999872744,3.242957899987232,3.611492399999406,left,-6.0,1,1,0.6717837000032887,173767,001,2024-09-10_11h22.05.971,Adaptive_Staircase,2024.1.5,None,2024-09-10 11h22.26.431876 +0530,
3,2,4.0,3.6261862000101246,,3.611582899990026,3.6261862000101246,4.144151600019541,4.125976599985734,4.125976599985734,4.4614881000015885,4.762172400020063,right,4.0,1,1,0.6218630999792367,173767,001,2024-09-10_11h22.05.971,Adaptive_Staircase,2024.1.5,None,2024-09-10 11h22.26.431876 +0530,
4,2,2.0,4.776979800022673,,4.7622828999883495,4.776979800022673,5.276670799998101,5.276670799998101,5.276670799998101,5.595630600000732,5.962159399990924,left,-2.0,1,1,0.6562050999491476,173767,001,2024-09-10_11h22.05.971,Adaptive_Staircase,2024.1.5,None,2024-09-10 11h22.26.431876 +0530,
5,2,1.0,5.993586600001436,,5.962257800041698,5.993586600001436,6.509847900015302,6.479018200014252,6.479018200014252,6.778132900013588,7.195158599992283,right,1.0,1,1,0.7129574000136927,173767,001,2024-09-10_11h22.05.971,Adaptive_Staircase,2024.1.5,None,2024-09-10 11h22.26.431876 +0530,
6,2,1.0,7.211031000013463,,7.19527259998722,7.211031000013463,7.727973000030033,7.710663600009866,7.710663600009866,8.0440835999907,9.128436200029682,left,-1.0,1,1,1.4024981999536976,173767,001,2024-09-10_11h22.05.971,Adaptive_Staircase,2024.1.5,None,2024-09-10 11h22.26.431876 +0530,
7,2,1.0,9.16092789999675,,9.128513300034683,9.16092789999675,9.662166399997659,9.643839700031094,9.643839700031094,9.944682000030298,10.361609500017948,left,-1.0,1,1,0.714169499988202,173767,001,2024-09-10_11h22.05.971,Adaptive_Staircase,2024.1.5,None,2024-09-10 11h22.26.431876 +0530,
8,2,1.0,10.376666099997237,,10.361704899987672,10.376666099997237,10.876756399986334,10.876756399986334,10.876756399986334,11.180074000032619,11.677607599995099,left,-1.0,1,1,0.7911509999539703,173767,001,2024-09-10_11h22.05.971,Adaptive_Staircase,2024.1.5,None,2024-09-10 11h22.26.431876 +0530,
9,2,1.0,11.693023100029677,,11.677677100000437,11.693023100029677,12.194626900018193,12.194626900018193,12.194626900018193,12.51050450000912,13.263704000040889,left,-1.0,1,1,1.0611593999783508,173767,001,2024-09-10_11h22.05.971,Adaptive_Staircase,2024.1.5,None,2024-09-10 11h22.26.431876 +0530,
10,2,1.0,13.296785400016233,,13.263871900038794,13.296785400016233,13.844732000026852,13.77864870004123,13.77864870004123,14.093948299996555,14.728721700026654,left,-1.0,1,1,0.9438113000360318,173767,001,2024-09-10_11h22.05.971,Adaptive_Staircase,2024.1.5,None,2024-09-10 11h22.26.431876 +0530,
11,2,1.0,14.760103600041475,,14.728808399988338,14.760103600041475,15.260113700001966,15.243139800033532,15.243139800033532,15.561211400025059,15.762651099998038,left,-1.0,1,1,0.5145689999917522,173767,001,2024-09-10_11h22.05.971,Adaptive_Staircase,2024.1.5,None,2024-09-10 11h22.26.431876 +0530,
12,2,1.0,15.777606600022409,,15.762746800028253,15.777606600022409,16.294129899994005,16.294129899994005,16.294129899994005,16.612048999988474,16.977452100021765,right,1.0,1,1,0.6687115000095218,173767,001,2024-09-10_11h22.05.971,Adaptive_Staircase,2024.1.5,None,2024-09-10 11h22.26.431876 +0530,
13,2,1.0,16.994409600039944,,16.97755260003032,16.994409600039944,17.510927900031675,17.49315530003514,17.49315530003514,17.81113019998884,18.128300499985926,left,-1.0,1,1,0.6178426999831572,173767,001,2024-09-10_11h22.05.971,Adaptive_Staircase,2024.1.5,None,2024-09-10 11h22.26.431876 +0530,
14,2,1.0,18.159797200001776,,18.128389100020286,18.159797200001776,18.66313200001605,18.62754270003643,18.62754270003643,18.944626900018193,19.64442790002795,left,-1.0,1,1,0.9981583000044338,173767,001,2024-09-10_11h22.05.971,Adaptive_Staircase,2024.1.5,None,2024-09-10 11h22.26.431876 +0530,
15,2,1.0,19.67749269999331,,19.644538199994713,19.67749269999331,20.19488900003489,20.144339699996635,20.144339699996635,20.460457300010603,20.69572469999548,left,-1.0,1,1,0.5486980999703519,173767,001,2024-09-10_11h22.05.971,Adaptive_Staircase,2024.1.5,None,2024-09-10 11h22.26.431876 +0530,
16,2,1.0,20.70952919998672,,20.695818100008182,20.70952919998672,21.227252100012265,21.209528400038835,21.209528400038835,21.528087200014852,22.595946500019636,left,-1.0,1,1,1.383211999956984,173767,001,2024-09-10_11h22.05.971,Adaptive_Staircase,2024.1.5,None,2024-09-10 11h22.26.431876 +0530,
17,2,1.0,22.610811999998987,,22.596067500009667,22.610811999998987,23.111665600037668,23.111665600037668,23.111665600037668,23.443584199994802,24.026603400008753,right,1.0,1,1,0.9028693999862298,173767,001,2024-09-10_11h22.05.971,Adaptive_Staircase,2024.1.5,None,2024-09-10 11h22.26.431876 +0530,
18,2,1.0,24.04335320001701,,24.02669110003626,24.04335320001701,24.576897000020836,24.543977199995425,24.543977199995425,24.843927500012796,25.12751640001079,left,-1.0,1,1,0.5586127000278793,173767,001,2024-09-10_11h22.05.971,Adaptive_Staircase,2024.1.5,None,2024-09-10 11h22.26.431876 +0530,
19,2,1.0,25.159070199995767,,25.127606599999126,25.159070199995767,25.67810770001961,25.645255300041754,25.645255300041754,25.943992500018794,26.329341700009536,left,-1.0,1,1,0.672798799991142,173767,001,2024-09-10_11h22.05.971,Adaptive_Staircase,2024.1.5,None,2024-09-10 11h22.26.431876 +0530,
20,2,1.0,26.344558499986306,,26.32944480003789,26.344558499986306,26.860554700018838,26.84475150000071,26.84475150000071,27.16146650002338,27.946507000015117,right,1.0,1,1,1.070981299970299,173767,001,2024-09-10_11h22.05.971,Adaptive_Staircase,2024.1.5,None,2024-09-10 11h22.26.431876 +0530,
21,1,1.0,27.960621600039303,,27.94661470002029,27.960621600039303,28.49502540001413,28.49502540001413,28.49502540001413,28.811942800006364,30.894633700023405,right,1.0,0,0,2.3832986999768764,173767,001,2024-09-10_11h22.05.971,Adaptive_Staircase,2024.1.5,None,2024-09-10 11h22.26.431876 +0530,
22,1,2.0,30.929883800039534,,30.89475640002638,30.929883800039534,31.462195400032215,31.39516170002753,31.39516170002753,31.711294000037014,31.87783670000499,left,-2.0,1,1,0.46897489996626973,173767,001,2024-09-10_11h22.05.971,Adaptive_Staircase,2024.1.5,None,2024-09-10 11h22.26.431876 +0530,
23,1,2.0,31.894117799995,,31.877949099987745,31.894117799995,32.41201179998461,32.41201179998461,32.41201179998461,32.74430810002377,32.978787300002296,right,2.0,1,1,0.5514947000192478,173767,001,2024-09-10_11h22.05.971,Adaptive_Staircase,2024.1.5,None,2024-09-10 11h22.26.431876 +0530,
24,1,2.0,32.993229100015014,,32.97889969998505,32.993229100015014,33.52581680001458,33.52581680001458,33.52581680001458,33.86025130003691,34.04581219999818,right,2.0,1,1,0.49625450000166893,173767,001,2024-09-10_11h22.05.971,Adaptive_Staircase,2024.1.5,None,2024-09-10 11h22.26.431876 +0530,
25,1,1.0,34.078626200032886,,34.045922600023914,34.078626200032886,34.610571500030346,34.57692359999055,34.57692359999055,34.8781927000382,35.16215099999681,left,-1.0,1,1,0.5744741999660619,173767,001,2024-09-10_11h22.05.971,Adaptive_Staircase,2024.1.5,None,2024-09-10 11h22.26.431876 +0530,
26,1,1.0,35.19446590001462,,35.16230870003346,35.19446590001462,35.711764900013804,35.67728529998567,35.67728529998567,35.97826080000959,37.01429210003698,right,1.0,1,1,1.3234093000064604,173767,001,2024-09-10_11h22.05.971,Adaptive_Staircase,2024.1.5,None,2024-09-10 11h22.26.431876 +0530,
27,1,1.0,37.04476499999873,,37.014396300015505,37.04476499999873,37.54430730000604,37.527534599998035,37.527534599998035,37.85885479999706,38.17856999998912,left,-1.0,1,1,0.6451598999556154,173767,001,2024-09-10_11h22.05.971,Adaptive_Staircase,2024.1.5,None,2024-09-10 11h22.26.431876 +0530,
28,0.5,1.0,38.21095530001912,,38.17865220003296,38.21095530001912,38.71191930002533,38.67837169999257,38.67837169999257,38.99603410001146,39.46330800000578,right,1.0,0,0,0.7724670000025071,173767,001,2024-09-10_11h22.05.971,Adaptive_Staircase,2024.1.5,None,2024-09-10 11h22.26.431876 +0530,
29,0.5,1.5,39.495177100005094,,39.463415600010194,39.495177100005094,40.011963099997956,39.97742519999156,39.97742519999156,40.277821200026665,41.27737570001045,right,1.5,1,1,1.2876037000096403,173767,001,2024-09-10_11h22.05.971,Adaptive_Staircase,2024.1.5,None,2024-09-10 11h22.26.431876 +0530,
30,0.5,1.5,41.292910400021356,,41.27746280003339,41.292910400021356,41.79383919999236,41.77771960000973,41.77771960000973,42.094788099988364,42.46345989999827,left,-1.5,1,1,0.6537432000041008,173767,001,2024-09-10_11h22.05.971,Adaptive_Staircase,2024.1.5,None,2024-09-10 11h22.26.431876 +0530,
31,0.5,1.5,42.49574660003418,,42.463582500000484,42.49574660003418,43.014687900024,42.97727999999188,42.97727999999188,43.27830320002977,43.59804030001396,left,-1.5,1,1,0.615172799967695,173767,001,2024-09-10_11h22.05.971,Adaptive_Staircase,2024.1.5,None,2024-09-10 11h22.26.431876 +0530,
32,0.5,1.0,43.629295699996874,,43.598214700003155,43.629295699996874,44.160906000004616,44.110857799998485,44.110857799998485,44.41061319998698,44.57684300001711,right,1.0,0,0,0.4577009999775328,173767,001,2024-09-10_11h22.05.971,Adaptive_Staircase,2024.1.5,None,2024-09-10 11h22.26.431876 +0530,
33,0.5,1.5,44.59374280000338,,44.57694100000663,44.59374280000338,45.110911800002214,45.110911800002214,45.110911800002214,45.4109357999987,45.644530299992766,right,1.5,1,1,0.5146912999916822,173767,001,2024-09-10_11h22.05.971,Adaptive_Staircase,2024.1.5,None,2024-09-10 11h22.26.431876 +0530,
34,0.5,1.5,45.67691839998588,,45.64463520003483,45.67691839998588,46.194089099997655,46.143912700004876,46.143912700004876,46.444258100003935,46.86254020000342,left,-1.5,1,1,0.7023140999954194,173767,001,2024-09-10_11h22.05.971,Adaptive_Staircase,2024.1.5,None,2024-09-10 11h22.26.431876 +0530,
35,0.5,1.5,46.87771790003171,,46.862695100018755,46.87771790003171,47.39407510001911,47.37709940003697,47.37709940003697,47.71048459998565,47.92867320001824,left,-1.5,1,1,0.5346822999999858,173767,001,2024-09-10_11h22.05.971,Adaptive_Staircase,2024.1.5,None,2024-09-10 11h22.26.431876 +0530,
36,0.5,1.0,47.94280150003033,,47.92878409998957,47.94280150003033,48.47692530002678,48.47692530002678,48.47692530002678,48.79430519999005,49.21160959999543,right,1.0,1,1,0.7236026999889873,173767,001,2024-09-10_11h22.05.971,Adaptive_Staircase,2024.1.5,None,2024-09-10 11h22.26.431876 +0530,
37,0.5,1.0,49.22633229999337,,49.2116803000099,49.22633229999337,49.760398100013845,49.72767180000665,49.72767180000665,50.02675449999515,50.34390999999596,left,-1.0,1,1,0.6112036000122316,173767,001,2024-09-10_11h22.05.971,Adaptive_Staircase,2024.1.5,None,2024-09-10 11h22.26.431876 +0530,
38,0.5,1.0,50.3597512000124,,50.343980700010434,50.3597512000124,50.876755200035404,50.860398299992085,50.860398299992085,51.16177740000421,51.581553900032304,left,-1.0,1,1,0.7035899000475183,173767,001,2024-09-10_11h22.05.971,Adaptive_Staircase,2024.1.5,None,2024-09-10 11h22.26.431876 +0530,
39,0.5,1.0,51.61277030000929,,51.58175280003343,51.61277030000929,52.14574559999164,52.11251220002305,52.11251220002305,52.42828150000423,53.31335900002159,left,-1.0,1,1,1.1961990999989212,173767,001,2024-09-10_11h22.05.971,Adaptive_Staircase,2024.1.5,None,2024-09-10 11h22.26.431876 +0530,
40,0.5,1.0,53.32745149999391,,53.31347120000282,53.32745149999391,53.85934510000516,53.82916220003972,53.82916220003972,54.14445160003379,54.546466000028886,left,-1.0,1,1,0.7090337999979965,173767,001,2024-09-10_11h22.05.971,Adaptive_Staircase,2024.1.5,None,2024-09-10 11h22.26.431876 +0530,
41,0.5,1.0,54.57864760002121,,54.54657420003787,54.57864760002121,55.07898669998394,55.045076100039296,55.045076100039296,55.36087570001837,55.83112610003445,left,-1.0,1,1,0.7789385999785736,173767,001,2024-09-10_11h22.05.971,Adaptive_Staircase,2024.1.5,None,2024-09-10 11h22.26.431876 +0530,
42,0.5,1.0,55.86058540001977,,55.831246500019915,55.86058540001977,56.36064979998628,56.34466890001204,56.34466890001204,56.66166769998381,56.91125150001608,left,-1.0,1,1,0.5577737999847159,173767,001,2024-09-10_11h22.05.971,Adaptive_Staircase,2024.1.5,None,2024-09-10 11h22.26.431876 +0530,
43,0.5,1.0,56.927083100017626,,56.91133239999181,56.927083100017626,57.44479079998564,57.42670140002156,57.42670140002156,57.74493889999576,57.97841660003178,left,-1.0,1,1,0.5488093000021763,173767,001,2024-09-10_11h22.05.971,Adaptive_Staircase,2024.1.5,None,2024-09-10 11h22.26.431876 +0530,
44,0.5,1.0,57.994151399994735,,57.97849710000446,57.994151399994735,58.51230539998505,58.51230539998505,58.51230539998505,58.81134680000832,59.15217630000552,left,-1.0,1,1,0.629515300039202,173767,001,2024-09-10_11h22.05.971,Adaptive_Staircase,2024.1.5,None,2024-09-10 11h22.26.431876 +0530,
45,0.5,1.0,59.16809600003762,,59.15236680000089,59.16809600003762,59.678390500019304,59.678390500019304,59.678390500019304,59.99490650004009,60.36234789999435,right,1.0,1,1,0.6587953999987803,173767,001,2024-09-10_11h22.05.971,Adaptive_Staircase,2024.1.5,None,2024-09-10 11h22.26.431876 +0530,
46,0.5,1.0,60.39526770001976,,60.36244880000595,60.39526770001976,60.92748150002444,60.877387700020336,60.877387700020336,61.17757460003486,61.9638028999907,left,-1.0,0,0,1.0819037000183016,173767,001,2024-09-10_11h22.05.971,Adaptive_Staircase,2024.1.5,None,2024-09-10 11h22.26.431876 +0530,
47,0.5,1.5,61.97726990003139,,61.96390110003995,61.97726990003139,62.47723910002969,62.47723910002969,62.47723910002969,62.77991049998673,63.41291569999885,right,1.5,1,1,0.9343761999625713,173767,001,2024-09-10_11h22.05.971,Adaptive_Staircase,2024.1.5,None,2024-09-10 11h22.26.431876 +0530,
48,0.5,1.5,63.42735409998568,,63.412987200019415,63.42735409998568,63.96200250001857,63.928997999988496,63.928997999988496,64.24366839998402,64.5293745000381,left,-1.5,1,1,0.5807794000138529,173767,001,2024-09-10_11h22.05.971,Adaptive_Staircase,2024.1.5,None,2024-09-10 11h22.26.431876 +0530,
49,0.5,1.5,64.54427690000739,,64.52947120001772,64.54427690000739,65.07728969998425,65.04555169999367,65.04555169999367,65.3609107999946,65.58058569999412,left,-1.5,1,1,0.5284865000285208,173767,001,2024-09-10_11h22.05.971,Adaptive_Staircase,2024.1.5,None,2024-09-10 11h22.26.431876 +0530,
50,0.5,1.0,65.61221420002403,,65.58073240000522,65.61221420002403,66.11231320002116,66.09490299999015,66.09490299999015,66.42686240002513,66.77997770003276,left,-1.0,1,1,0.6826792000210844,173767,001,2024-09-10_11h22.05.971,Adaptive_Staircase,2024.1.5,None,2024-09-10 11h22.26.431876 +0530,
51,0.5,1.0,66.79408010002226,,66.78008480003336,66.79408010002226,67.3107042000047,67.3107042000047,67.3107042000047,67.61100690002786,68.12764349998906,right,1.0,1,1,0.809151399997063,173767,001,2024-09-10_11h22.05.971,Adaptive_Staircase,2024.1.5,None,2024-09-10 11h22.26.431876 +0530,
52,0.5,1.0,68.1435336000286,,68.12770910002291,68.1435336000286,68.66141810000408,68.66141810000408,68.66141810000408,68.9617719000089,70.16134320001584,right,1.0,1,1,1.4927071999991313,173767,001,2024-09-10_11h22.05.971,Adaptive_Staircase,2024.1.5,None,2024-09-10 11h22.26.431876 +0530,
53,0.5,1.0,70.17674910003552,,70.16144080000231,70.17674910003552,70.69584890000988,70.69584890000988,70.69584890000988,71.01129679998849,72.26170610002009,right,1.0,1,1,1.5554387000156567,173767,001,2024-09-10_11h22.05.971,Adaptive_Staircase,2024.1.5,None,2024-09-10 11h22.26.431876 +0530,
54,0.5,1.0,72.27670590003254,,72.26178260002052,72.27670590003254,72.8098209000309,72.7784122999874,72.7784122999874,73.07810260000406,73.37802619999275,left,-1.0,1,1,0.5974790999898687,173767,001,2024-09-10_11h22.05.971,Adaptive_Staircase,2024.1.5,None,2024-09-10 11h22.26.431876 +0530,
55,0.5,1.0,73.39331300003687,,73.37815410003532,73.39331300003687,73.91167719999794,73.91167719999794,73.91167719999794,74.21077290002722,74.74609070003498,right,1.0,1,1,0.8187840000027791,173767,001,2024-09-10_11h22.05.971,Adaptive_Staircase,2024.1.5,None,2024-09-10 11h22.26.431876 +0530,
56,0.5,1.0,74.7609625000041,,74.74619999999413,74.7609625000041,75.26231260003988,75.24491260002833,75.24491260002833,75.57718850002857,76.21233579999534,right,1.0,1,1,0.9580408000038005,173767,001,2024-09-10_11h22.05.971,Adaptive_Staircase,2024.1.5,None,2024-09-10 11h22.26.431876 +0530,
57,0.5,1.0,76.22776109998813,,76.2124327000347,76.22776109998813,76.72743860003538,76.72743860003538,76.72743860003538,77.06180269998731,77.24554229999194,left,-1.0,1,1,0.5037514999858104,173767,001,2024-09-10_11h22.05.971,Adaptive_Staircase,2024.1.5,None,2024-09-10 11h22.26.431876 +0530,
58,0.5,1.0,77.27903680002782,,77.24565040000016,77.27903680002782,77.81118940003216,77.76095460000215,77.76095460000215,78.0769306999864,78.36481270001968,left,-1.0,1,1,0.5837146999547258,173767,001,2024-09-10_11h22.05.971,Adaptive_Staircase,2024.1.5,None,2024-09-10 11h22.26.431876 +0530,
59,0.5,1.0,78.3963262999896,,78.36498200002825,78.3963262999896,78.91132100002142,78.87965050002094,78.87965050002094,79.19456780003384,79.33268759999191,left,-1.0,1,1,0.4238354000262916,173767,001,2024-09-10_11h22.05.971,Adaptive_Staircase,2024.1.5,None,2024-09-10 11h22.26.431876 +0530,
60,0.5,1.0,79.3440614999854,,79.33276250003837,79.3440614999854,79.87995909998426,79.87995909998426,79.87995909998426,80.21231259999331,80.295279700018,left,-1.0,1,1,0.40645589999621734,173767,001,2024-09-10_11h22.05.971,Adaptive_Staircase,2024.1.5,None,2024-09-10 11h22.26.431876 +0530,
61,0.5,1.0,80.31099740002537,,80.29538419999881,80.31099740002537,80.82695230003446,80.82695230003446,80.82695230003446,81.12729199999012,81.76332930003991,right,1.0,1,1,0.9320288999588229,173767,001,2024-09-10_11h22.05.971,Adaptive_Staircase,2024.1.5,None,2024-09-10 11h22.26.431876 +0530,
62,0.5,1.0,81.77780600002734,,81.76343779999297,81.77780600002734,82.29623969999375,82.29623969999375,82.29623969999375,82.61172929999884,83.02853070001584,left,-1.0,1,1,0.7069960999651812,173767,001,2024-09-10_11h22.05.971,Adaptive_Staircase,2024.1.5,None,2024-09-10 11h22.26.431876 +0530,
63,0.5,1.0,83.06193359999452,,83.02859890001127,83.06193359999452,83.56199810001999,83.52788290003082,83.52788290003082,83.84438170003705,84.16253870003857,left,-1.0,1,1,0.614358099992387,173767,001,2024-09-10_11h22.05.971,Adaptive_Staircase,2024.1.5,None,2024-09-10 11h22.26.431876 +0530,
64,0.5,1.0,84.19409170001745,,84.16263189999154,84.19409170001745,84.71033820003504,84.6770979000139,84.6770979000139,84.97844830004033,86.26187819999177,right,1.0,0,0,1.5822847000090405,173767,001,2024-09-10_11h22.05.971,Adaptive_Staircase,2024.1.5,None,2024-09-10 11h22.26.431876 +0530,
65,0.5,1.5,86.27798000001349,,86.26202230004128,86.27798000001349,86.79507809999632,86.79507809999632,86.79507809999632,87.11272080003982,87.42885970004136,right,1.5,1,1,0.6328964999993332,173767,001,2024-09-10_11h22.05.971,Adaptive_Staircase,2024.1.5,None,2024-09-10 11h22.26.431876 +0530,
66,0.5,1.5,87.44394620001549,,87.4289363999851,87.44394620001549,87.95997700002044,87.95997700002044,87.95997700002044,88.29452890000539,88.41195400001016,right,1.5,1,1,0.44249610003316775,173767,001,2024-09-10_11h22.05.971,Adaptive_Staircase,2024.1.5,None,2024-09-10 11h22.26.431876 +0530,
67,0.5,1.5,88.4273199000163,,88.41204870003276,88.4273199000163,88.92729010002222,88.92729010002222,88.92729010002222,89.24508309998782,89.54736190004041,right,1.5,0,0,0.6045202999957837,173767,001,2024-09-10_11h22.05.971,Adaptive_Staircase,2024.1.5,None,2024-09-10 11h22.26.431876 +0530,
68,0.5,2.0,89.57820099999662,,89.5474455000367,89.57820099999662,90.0787558000302,90.0448039000039,90.0448039000039,90.3617377000046,90.64572850003606,left,-2.0,1,1,0.5992404000135139,173767,001,2024-09-10_11h22.05.971,Adaptive_Staircase,2024.1.5,None,2024-09-10 11h22.26.431876 +0530,
69,0.5,2.0,90.67724400002044,,90.64581900002668,90.67724400002044,91.17778080003336,91.14675870002247,91.14675870002247,91.47821349999867,91.92863740003668,right,2.0,1,1,0.7734137999941595,173767,001,2024-09-10_11h22.05.971,Adaptive_Staircase,2024.1.5,None,2024-09-10 11h22.26.431876 +0530,
70,0.5,2.0,91.9442626000382,,91.92870809999295,91.9442626000382,92.46449560002657,92.44346430001315,92.44346430001315,92.76156890002312,93.06268030003412,left,-2.0,1,1,0.6160858999937773,173767,001,2024-09-10_11h22.05.971,Adaptive_Staircase,2024.1.5,None,2024-09-10 11h22.26.431876 +0530,
71,0.5,1.5,93.07673820003401,,93.06278660002863,93.07673820003401,93.57715299999109,93.57715299999109,93.57715299999109,93.89398390002316,94.16224760003388,left,-1.5,1,1,0.5798767000087537,173767,001,2024-09-10_11h22.05.971,Adaptive_Staircase,2024.1.5,None,2024-09-10 11h22.26.431876 +0530,
72,0.5,1.5,94.18005640001502,,94.16236070002196,94.18005640001502,94.6794394000317,94.6794394000317,94.6794394000317,95.0118308000383,95.47815410001203,right,1.5,0,0,0.7861874999944121,173767,001,2024-09-10_11h22.05.971,Adaptive_Staircase,2024.1.5,None,2024-09-10 11h22.26.431876 +0530,
73,0.5,2.0,95.51142039999831,,95.47825310000917,95.51142039999831,96.01055950002046,95.97836870001629,95.97836870001629,96.29502010002034,96.69514030002756,left,-2.0,1,1,0.691095799964387,173767,001,2024-09-10_11h22.05.971,Adaptive_Staircase,2024.1.5,None,2024-09-10 11h22.26.431876 +0530,
74,0.5,2.0,96.71010239998577,,96.69522550003603,96.71010239998577,97.24544770002831,97.24544770002831,97.24544770002831,97.54357630002778,97.94990509998752,right,2.0,1,1,0.7024451999459416,173767,001,2024-09-10_11h22.05.971,Adaptive_Staircase,2024.1.5,None,2024-09-10 11h22.26.431876 +0530,
75,0.5,2.0,97.9788644000073,,97.95004249998601,97.9788644000073,98.47760350001045,98.46125220000977,98.46125220000977,98.77848570002243,98.91182440001285,right,2.0,1,1,0.439801600005012,173767,001,2024-09-10_11h22.05.971,Adaptive_Staircase,2024.1.5,None,2024-09-10 11h22.26.431876 +0530,
76,0.5,1.5,98.94417000003159,,98.91193150001345,98.94417000003159,99.46140040003229,99.41128010000102,99.41128010000102,99.71205969998846,100.0290917000384,right,1.5,1,1,0.5951539999805391,173767,001,2024-09-10_11h22.05.971,Adaptive_Staircase,2024.1.5,None,2024-09-10 11h22.26.431876 +0530,
77,0.5,1.5,100.06102349999128,,100.02920460002497,100.06102349999128,100.56258880003588,100.54497330001323,100.54497330001323,100.86027760000434,101.06120639998699,left,-1.5,1,1,0.5135771000059322,173767,001,2024-09-10_11h22.05.971,Adaptive_Staircase,2024.1.5,None,2024-09-10 11h22.26.431876 +0530,
78,0.5,1.5,101.07696660002694,,101.06129879999207,101.07696660002694,101.57740310003283,101.57740310003283,101.57740310003283,101.91135120001854,102.44666690001031,left,-1.5,1,1,0.852677799994126,173767,001,2024-09-10_11h22.05.971,Adaptive_Staircase,2024.1.5,None,2024-09-10 11h22.26.431876 +0530,
79,0.5,1.0,102.47796689998358,,102.44677350000711,102.47796689998358,102.99482570000691,102.96209300000919,102.96209300000919,103.26207510003587,103.93183930002851,right,1.0,1,1,0.9398098000092432,173767,001,2024-09-10_11h22.05.971,Adaptive_Staircase,2024.1.5,None,2024-09-10 11h22.26.431876 +0530,
80,0.5,1.0,103.96183109999401,,103.93199860001914,103.96183109999401,104.46125759999268,104.44863669999177,104.44863669999177,104.77676330000395,105.28151440003421,left,-1.0,1,1,0.8091110000386834,173767,001,2024-09-10_11h22.05.971,Adaptive_Staircase,2024.1.5,None,2024-09-10 11h22.26.431876 +0530,
81,0.5,1.0,105.31274740002118,,105.28165980003541,105.31274740002118,105.82728090003366,105.7955863000243,105.7955863000243,106.095222700038,106.39627269998891,left,-1.0,1,1,0.580935399979353,173767,001,2024-09-10_11h22.05.971,Adaptive_Staircase,2024.1.5,None,2024-09-10 11h22.26.431876 +0530,
82,0.5,1.0,106.4281243000296,,106.3963669000077,106.4281243000296,106.9288495000219,106.91048140003113,106.91048140003113,107.21301060001133,107.39604339998914,left,-1.0,1,1,0.47920089995022863,173767,001,2024-09-10_11h22.05.971,Adaptive_Staircase,2024.1.5,None,2024-09-10 11h22.26.431876 +0530,
83,0.5,1.0,107.41115230001742,,107.3961444000015,107.41115230001742,107.9281305000186,107.9281305000186,107.9281305000186,108.24711840000236,108.57977830001619,right,1.0,1,1,0.6474851000239141,173767,001,2024-09-10_11h22.05.971,Adaptive_Staircase,2024.1.5,None,2024-09-10 11h22.26.431876 +0530,
84,0.5,1.0,108.59431780001614,,108.57988070003921,108.59431780001614,109.0939531000331,109.0939531000331,109.0939531000331,109.42759169999044,110.77914619998774,right,1.0,1,1,1.6839659999823198,173767,001,2024-09-10_11h22.05.971,Adaptive_Staircase,2024.1.5,None,2024-09-10 11h22.26.431876 +0530,
85,0.5,1.0,110.79397090000566,,110.77923710003961,110.79397090000566,111.31064720003633,111.31064720003633,111.31064720003633,111.64616080000997,112.02973110001767,left,-1.0,1,1,0.7075462000211701,173767,001,2024-09-10_11h22.05.971,Adaptive_Staircase,2024.1.5,None,2024-09-10 11h22.26.431876 +0530,
86,0.5,1.0,112.0443368999986,,112.029823400022,112.0443368999986,112.56331160000991,112.56331160000991,112.56331160000991,112.87799910001922,113.44490100000985,right,1.0,1,1,0.8757938999915496,173767,001,2024-09-10_11h22.05.971,Adaptive_Staircase,2024.1.5,None,2024-09-10 11h22.26.431876 +0530,
87,0.5,1.0,113.46032539999578,,113.4449764000019,113.46032539999578,113.96094920003088,113.94523150002351,113.94523150002351,114.27787230000831,115.09668610000517,left,-1.0,1,1,1.1428615999757312,173767,001,2024-09-10_11h22.05.971,Adaptive_Staircase,2024.1.5,None,2024-09-10 11h22.26.431876 +0530,
88,0.5,1.0,115.11136099998839,,115.09679540002253,115.11136099998839,115.6105240000179,115.6105240000179,115.6105240000179,115.94645450002281,116.22896290000062,right,1.0,0,0,0.6063412999501452,173767,001,2024-09-10_11h22.05.971,Adaptive_Staircase,2024.1.5,None,2024-09-10 11h22.26.431876 +0530,
89,0.5,1.5,116.2441109000356,,116.22905309998896,116.2441109000356,116.74552230001427,116.7283917000168,116.7283917000168,117.04473670001607,117.36338980001165,left,-1.5,1,1,0.6318159000365995,173767,001,2024-09-10_11h22.05.971,Adaptive_Staircase,2024.1.5,None,2024-09-10 11h22.26.431876 +0530,
90,0.5,1.5,117.39440910000121,,117.36345549998805,117.39440910000121,117.89468130003661,117.87784510001075,117.87784510001075,118.1940123999957,119.04657450004015,right,1.5,1,1,1.1609504999942146,173767,001,2024-09-10_11h22.05.971,Adaptive_Staircase,2024.1.5,None,2024-09-10 11h22.26.431876 +0530,
91,0.5,1.5,119.07870030001504,,119.04667000001064,119.07870030001504,119.57798770000227,119.56124599999748,119.56124599999748,119.87748800002737,120.1314767000149,left,-1.5,1,1,0.5608631999930367,173767,001,2024-09-10_11h22.05.971,Adaptive_Staircase,2024.1.5,None,2024-09-10 11h22.26.431876 +0530,
92,0.5,1.0,120.14468620001571,,120.13160560000688,120.14468620001571,120.64442870003404,120.64442870003404,120.64442870003404,120.96159900003113,121.31200750003336,right,1.0,0,0,0.6628322000033222,173767,001,2024-09-10_11h22.05.971,Adaptive_Staircase,2024.1.5,None,2024-09-10 11h22.26.431876 +0530,
93,0.5,1.5,121.34567200002493,,121.31207899999572,121.34567200002493,121.87795719999122,121.81145099998685,121.81145099998685,122.11209840001538,122.86480580002535,right,1.5,1,1,1.0435612999717705,173767,001,2024-09-10_11h22.05.971,Adaptive_Staircase,2024.1.5,None,2024-09-10 11h22.26.431876 +0530,
94,0.5,1.5,122.87861170002725,,122.86501150002005,122.87861170002725,123.4113746000221,123.4113746000221,123.4113746000221,123.71469350002008,125.23045899998397,right,1.5,1,1,1.8020333999884315,173767,001,2024-09-10_11h22.05.971,Adaptive_Staircase,2024.1.5,None,2024-09-10 11h22.26.431876 +0530,
95,0.5,1.5,125.26174029998947,,125.23053120000986,125.26174029998947,125.77798469999107,125.74383180000586,125.74383180000586,126.06192820001161,126.44677800004138,right,1.5,1,1,0.6940021000336856,173767,001,2024-09-10_11h22.05.971,Adaptive_Staircase,2024.1.5,None,2024-09-10 11h22.26.431876 +0530,
96,0.5,1.0,126.46149519999744,,126.44688240002142,126.46149519999744,126.97928530001082,126.97928530001082,126.97928530001082,127.27971720002824,127.74394200003007,left,-1.0,1,1,0.7528750000055879,173767,001,2024-09-10_11h22.05.971,Adaptive_Staircase,2024.1.5,None,2024-09-10 11h22.26.431876 +0530,
97,0.5,1.0,127.76088690001052,,127.7440123000415,127.76088690001052,128.278821600019,128.278821600019,128.278821600019,128.5780764000374,129.33117299998412,left,-1.0,1,1,1.04885550000472,173767,001,2024-09-10_11h22.05.971,Adaptive_Staircase,2024.1.5,None,2024-09-10 11h22.26.431876 +0530,
98,0.5,1.0,129.36211590003222,,129.33126200002152,129.36211590003222,129.86132870003348,129.84477010002593,129.84477010002593,130.14401390001876,130.61217139998917,right,1.0,1,1,0.7578081999672577,173767,001,2024-09-10_11h22.05.971,Adaptive_Staircase,2024.1.5,None,2024-09-10 11h22.26.431876 +0530,
99,0.5,1.0,130.62934730004054,,130.61227370001143,130.62934730004054,131.12824819999514,131.12824819999514,131.12824819999514,131.44459319999442,131.64878270000918,left,-1.0,1,1,0.5123648000298999,173767,001,2024-09-10_11h22.05.971,Adaptive_Staircase,2024.1.5,None,2024-09-10 11h22.26.431876 +0530,
